Folder: Python_Workshop/Data

Note: README.md
# Python_Workshop
AMS Python Workshop

File: Rail_Frame.dat
Date/Time: 3/4/2016 3:02:21 PM
Material:  Al 6061 T6
Time (ms)	Displacement (um)	Load (N)
0	0.000000	14.1472
1726	18	19.6258
3526	36	44.9494
5326	54	65.8369
7126	72	85.3157
8926	90	104.607
10726	108	123.921
12526	126	142.59
14326	144	159.983
16126	162	176.517
17926	180	191.781
19726	198	205.29
21526	216	216.208
23326	234	226.335
25126	252	235.012
26926	270	243.565
28726	288	249.103
30526	306	254.425
32326	324	258.613
34126	342	264.104
35926	360	271.362
37726	378	279.269
39526	396	286.857
41326	414	295.248
43126	432	305.212
44926	450	315.314
46726	468	325.246
48526	486	336.145
50326	504	345.281
52126	522	355.29
53926	540	364.601
55726	558	373.318
57526	576	382.967
59326	594	390.965
61126	612	399.304
62926	630	406.737
64726	648	409.486
66526	666	420.89
68326	684	428.515
70126	702	435.724
71926	720	441.089
73726	738	448.491
75526	756	455.985
77326	774	462.584
79126	792	469.689
80926	810	475.465
82726	828	481.697
84526	846	487.914
86326	864	493.102
88126	882	499.33
89926	900	505.945
91726	918	512.65
93526	936	519.228
95326	954	525.31
97126	972	532.225
98926	990	538.367
100726	1008	544.788
102526	1026	547.397
104326	1044	557.603
106126	1062	564.732
107926	1080	571.471
109726	1098	578.396
111526	1116	584.659
113326	1134	591.477
115126	1152	597.495
116926	1170	604.032
118726	1188	611.033
120526	1206	617.292
122326	1224	623.916
124126	1242	630.2
125926	1260	636.78
127726	1278	642.862
129526	1296	648.992
131326	1314	655.679
133126	1332	661.315
134926	1350	667.55
136726	1368	672.835
138526	1386	678.476
140326	1404	684.043
142126	1422	689.256
143926	1440	694.32
145726	1458	699.199
147526	1476	703.427
149326	1494	707.951
151126	1512	711.532
152926	1530	715.3
154726	1548	718.082
156526	1566	721.082
158326	1584	723.463
160126	1602	725.534
161926	1620	727.616
163726	1638	729.241
165526	1656	730.555
167326	1674	731.767
169126	1692	733.116
170926	1710	734.592
172726	1728	735.218
174526	1746	736.617
176326	1764	737.867
178126	1782	738.639
179926	1800	740.192
181726	1818	740.414
183526	1836	742.224
185326	1854	742.378
187126	1872	743.16
188926	1890	744.499
190726	1908	745.318
192526	1926	746.633
194326	1944	747.116
196126	1962	747.644
197926	1980	748.461
199726	1998	749.034
201526	2016	751.31
203326	2034	751.678
205126	2052	752.931
206926	2070	753.006
208726	2088	752.698
210526	2106	753.294
212326	2124	756.323
214126	2142	757.181
215926	2160	757.642
217726	2178	758.129
219526	2196	758.955
221326	2214	759.533
223126	2232	760.944
224926	2250	760.999
226726	2268	762.683
228526	2286	763.162
230326	2304	763.723
232126	2322	764.703
233926	2340	765.491
235726	2358	766.535
237526	2376	767.116
239326	2394	767.941
241126	2412	768.719
242926	2430	769.457
244726	2448	770.463
246526	2466	771.212
248326	2484	768.497
250126	2502	766.199
251926	2520	774.332
253726	2538	775.243
255526	2556	774.841
257326	2574	775.628
259126	2592	775.729
260926	2610	776.503
262726	2628	777.023
264526	2646	777.575
266326	2664	778.618
268126	2682	779.275
269926	2700	779.919
271726	2718	780.317
273526	2736	781.034
275326	2754	781.858
277126	2772	782.518
278926	2790	783.644
280726	2808	783.582
282526	2826	784.037
284326	2844	784.918
286126	2862	785.649
287926	2880	786.325
289726	2898	786.763
291526	2916	787.318
293326	2934	787.708
295126	2952	788.293
296926	2970	787.748
298726	2988	785.065
300526	3006	790.315
302326	3024	791.342
304126	3042	791.362
305926	3060	791.818
307726	3078	792.01
309526	3096	792.312
311326	3114	792.6
313126	3132	792.734
314926	3150	793.842
316726	3168	794.024
318526	3186	794.808
320326	3204	795.025
322126	3222	795.629
323926	3240	795.694
325726	3258	796.115
327526	3276	797.125
329326	3294	796.951
331126	3312	797.708
332926	3330	797.827
334726	3348	798.132
336526	3366	798.767
338326	3384	798.883
340126	3402	799.564
341926	3420	799.765
343726	3438	800.046
345526	3456	800.704
347326	3474	800.75
349126	3492	801.346
350926	3510	801.245
352726	3528	802.246
354526	3546	802.043
356326	3564	802.433
358126	3582	802.709
359926	3600	802.95
361726	3618	803.171
363526	3636	803.624
365326	3654	803.371
367126	3672	804.209
368926	3690	804.284
370726	3708	804.812
372526	3726	804.824
374326	3744	804.952
376126	3762	805.064
377926	3780	805.228
379726	3798	806.038
381526	3816	806.081
383326	3834	806.394
385126	3852	806.197
386926	3870	806.237
388726	3888	806.814
390526	3906	806.676
392326	3924	807.222
394126	3942	806.922
395926	3960	807.289
397726	3978	807.445
399526	3996	807.377
401326	4014	808.079
403126	4032	807.829
404926	4050	808.004
406726	4068	808.036
408526	4086	807.837
410326	4104	808.606
412126	4122	808.241
413926	4140	808.55
415726	4158	808.818
417526	4176	808.642
419326	4194	809.054
421126	4212	808.718
422926	4230	809.45
424726	4248	809.152
426526	4266	809.438
428326	4284	809.504
430126	4302	809.131
431926	4320	809.61
433726	4338	809.596
435526	4356	809.981
437326	4374	809.711
439126	4392	809.66
440926	4410	810.048
442726	4428	809.696
444526	4446	810.004
446326	4464	809.696
448126	4482	809.85
449926	4500	809.882
451726	4518	809.625
453526	4536	809.831
455326	4554	809.755
457126	4572	809.854
458926	4590	809.781
460726	4608	809.594
462526	4626	809.955
464326	4644	809.612
466126	4662	809.927
467926	4680	809.824
469726	4698	809.354
471526	4716	809.639
473326	4734	809.222
475126	4752	809.725
476926	4770	809.161
478726	4788	808.808
480526	4806	808.474
482326	4824	808.19
484126	4842	808.202
485926	4860	807.773
487726	4878	807.394
489526	4896	806.618
491326	4914	805.674
493126	4932	805.401
494926	4950	803.995
496726	4968	803.411
498526	4986	801.619
500326	5004	800.406
502126	5022	798.064
503926	5040	795.232
505726	5058	792.841
507526	5076	789.519
509326	5094	786.057
511126	5112	781.277
512926	5130	776.126
514726	5148	770.47
516526	5166	762.894
518326	5184	754.416
520126	5202	743.35
521926	5220	728.427
523726	5238	707.863
525526	5256	3.545730
526726	5268	1.757754